Target Domain  Target Variable	    Variable Label	                  Type	Source Data	    Source Variable	  Mapping Rule
DM	           STUDYID              Study Identifier	              Char	SyntheticMass	N/A           	  Hardcode as "SYNTHEA-001"
DM	           DOMAIN	            Domain Abbreviation	              Char	SyntheticMass	N/A	              Hardcode as "DM"
DM	           SUBJID	            Subject Identifier for the Study  Char	patients.csv	ID	              Extract the last 8 characters of the Synthea ID string.
DM	           USUBJID              Unique Subject Identifier	      Char	patients.csv	ID	              Concatenate STUDYID, a hyphen "-", and SUBJID.
DM	           BRTHDTC              Date/Time of Birth	              Char	patients.csv	BIRTHDATE	      Keep as YYYY-MM-DD (Ensure it is an ISO 8601 character string).
DM	           DTHDTC	            Date/Time of Death	              Char	patients.csv	DEATHDATE	      Map directly. If missing, leave blank.
DM	           DTHFL	            Subject Death Flag	              Char	patients.csv	DEATHDATE	      If DEATHDATE is not missing, set to "Y".
DM	           SEX	                Sex                            	  Char	patients.csv	GENDER	          Uppercase the value (M or F).
DM	           RACE	                Race	                          Char	patients.csv	RACE	          Uppercase the value. Map "BLACK" to "BLACK OR AFRICAN AMERICAN", "NATIVE" to "AMERICAN INDIAN OR ALASKA NATIVE". Keep "WHITE" and "ASIAN" as is.
DM	           ETHNIC	            Ethnicity	                      Char	patients.csv	ETHNICITY	      If upcase is "NONHISPANIC" set to "NOT HISPANIC OR LATINO". If "HISPANIC" set to "HISPANIC OR LATINO".
DM	           COUNTRY              Country	                          Char	patients.csv	STATE	          Since all patients are in Massachusetts, hardcode as "USA".
						
